onset	duration	sub	run_num	set	run_cond	stim_file_name	trial_num	type	block	img_cat	go_stim	signal	reqSSD	correct	response	response_time	trueSSD
0	2	sub-002	5	C	food	wait	n/a	fMRI	n/a	n/a	n/a	n/a	n/a	n/a	n/a	n/a	n/a
2	2.1	sub-002	5	C	food	c1_instruct	n/a	fMRI	n/a	n/a	n/a	n/a	n/a	n/a	n/a	n/a	n/a
4.1	15	sub-002	5	C	food	setC_food2.mp4	n/a	fMRI	n/a	n/a	n/a	n/a	n/a	n/a	n/a	n/a	n/a
19.1	10	sub-002	5	C	food	fix	n/a	fMRI	n/a	n/a	n/a	n/a	n/a	n/a	n/a	n/a	n/a
29.1	2.1	sub-002	5	C	food	sst_instruct	n/a	fMRI	n/a	n/a	n/a	n/a	n/a	n/a	n/a	n/a	n/a
31.2	0.6	sub-002	5	C	food	sst_fix	n/a	fMRI	n/a	n/a	n/a	n/a	n/a	n/a	n/a	n/a	n/a
31.8	0.7	sub-002	5	C	food	go1_sweet2.jpeg	289	fMRI	1	sweet	1	0	0	4	1	0.704	0
32.5	0.3	sub-002	5	C	food	post_go_fix	n/a	fMRI	n/a	n/a	n/a	n/a	n/a	n/a	n/a	n/a	n/a
32.8	0.5	sub-002	5	C	food	jitter_fix	n/a	fMRI	n/a	n/a	n/a	n/a	n/a	n/a	n/a	n/a	n/a
33.3	0.6	sub-002	5	C	food	sst_fix	n/a	fMRI	n/a	n/a	n/a	n/a	n/a	n/a	n/a	n/a	n/a
33.9	0.5	sub-002	5	C	food	go1_sweet5.jpeg	290	fMRI	1	sweet	1	0	0	4	1	0.55	0
34.4	0.5	sub-002	5	C	food	post_go_fix	n/a	fMRI	n/a	n/a	n/a	n/a	n/a	n/a	n/a	n/a	n/a
34.9	0.5	sub-002	5	C	food	jitter_fix	n/a	fMRI	n/a	n/a	n/a	n/a	n/a	n/a	n/a	n/a	n/a
35.4	0.5	sub-002	5	C	food	sst_fix	n/a	fMRI	n/a	n/a	n/a	n/a	n/a	n/a	n/a	n/a	n/a
35.9	0.6	sub-002	5	C	food	go2_sweet6.jpeg	291	fMRI	1	sweet	2	0	0	4	2	0.591	0
36.5	0.5	sub-002	5	C	food	post_go_fix	n/a	fMRI	n/a	n/a	n/a	n/a	n/a	n/a	n/a	n/a	n/a
37	0.5	sub-002	5	C	food	jitter_fix	n/a	fMRI	n/a	n/a	n/a	n/a	n/a	n/a	n/a	n/a	n/a
37.5	0.5	sub-002	5	C	food	sst_fix	n/a	fMRI	n/a	n/a	n/a	n/a	n/a	n/a	n/a	n/a	n/a
38	0.3	sub-002	5	C	food	go2_sweet5.jpeg	292	fMRI	1	sweet	2	1	250	4	0	n/a	255
38.3	0.7	sub-002	5	C	food	sst_signal	n/a	fMRI	n/a	n/a	n/a	n/a	n/a	n/a	n/a	n/a	n/a
39	0.6	sub-002	5	C	food	jitter_fix	n/a	fMRI	n/a	n/a	n/a	n/a	n/a	n/a	n/a	n/a	n/a
39.6	0.5	sub-002	5	C	food	sst_fix	n/a	fMRI	n/a	n/a	n/a	n/a	n/a	n/a	n/a	n/a	n/a
40.1	0.4	sub-002	5	C	food	go1_sweet1.jpeg	293	fMRI	1	sweet	1	0	0	4	1	0.462	0
40.5	0.6	sub-002	5	C	food	post_go_fix	n/a	fMRI	n/a	n/a	n/a	n/a	n/a	n/a	n/a	n/a	n/a
41.1	2.5	sub-002	5	C	food	jitter_fix	n/a	fMRI	n/a	n/a	n/a	n/a	n/a	n/a	n/a	n/a	n/a
43.6	0.5	sub-002	5	C	food	sst_fix	n/a	fMRI	n/a	n/a	n/a	n/a	n/a	n/a	n/a	n/a	n/a
44.1	0.6	sub-002	5	C	food	go2_sweet2.jpeg	294	fMRI	1	sweet	2	0	0	4	2	0.586	0
44.7	0.4	sub-002	5	C	food	post_go_fix	n/a	fMRI	n/a	n/a	n/a	n/a	n/a	n/a	n/a	n/a	n/a
45.1	2.6	sub-002	5	C	food	jitter_fix	n/a	fMRI	n/a	n/a	n/a	n/a	n/a	n/a	n/a	n/a	n/a
47.7	0.5	sub-002	5	C	food	sst_fix	n/a	fMRI	n/a	n/a	n/a	n/a	n/a	n/a	n/a	n/a	n/a
48.2	0.5	sub-002	5	C	food	go2_sweet4.jpeg	295	fMRI	1	sweet	2	0	0	4	2	0.549	0
48.7	0.5	sub-002	5	C	food	post_go_fix	n/a	fMRI	n/a	n/a	n/a	n/a	n/a	n/a	n/a	n/a	n/a
49.2	0.5	sub-002	5	C	food	jitter_fix	n/a	fMRI	n/a	n/a	n/a	n/a	n/a	n/a	n/a	n/a	n/a
49.7	0.5	sub-002	5	C	food	sst_fix	n/a	fMRI	n/a	n/a	n/a	n/a	n/a	n/a	n/a	n/a	n/a
50.2	0.7	sub-002	5	C	food	go1_sweet5.jpeg	296	fMRI	1	sweet	1	0	0	2	2	0.617	0
50.9	0.3	sub-002	5	C	food	post_go_fix	n/a	fMRI	n/a	n/a	n/a	n/a	n/a	n/a	n/a	n/a	n/a
51.2	0.6	sub-002	5	C	food	jitter_fix	n/a	fMRI	n/a	n/a	n/a	n/a	n/a	n/a	n/a	n/a	n/a
51.8	0.5	sub-002	5	C	food	sst_fix	n/a	fMRI	n/a	n/a	n/a	n/a	n/a	n/a	n/a	n/a	n/a
52.3	1	sub-002	5	C	food	go1_sweet6.jpeg	297	fMRI	1	sweet	1	0	0	1	0	n/a	0
53.3	0.5	sub-002	5	C	food	jitter_fix	n/a	fMRI	n/a	n/a	n/a	n/a	n/a	n/a	n/a	n/a	n/a
53.8	0.6	sub-002	5	C	food	sst_fix	n/a	fMRI	n/a	n/a	n/a	n/a	n/a	n/a	n/a	n/a	n/a
54.4	1	sub-002	5	C	food	go2_sweet3.jpeg	298	fMRI	1	sweet	2	0	0	1	0	n/a	0
55.4	0.5	sub-002	5	C	food	jitter_fix	n/a	fMRI	n/a	n/a	n/a	n/a	n/a	n/a	n/a	n/a	n/a
55.9	0.5	sub-002	5	C	food	sst_fix	n/a	fMRI	n/a	n/a	n/a	n/a	n/a	n/a	n/a	n/a	n/a
56.4	0.6	sub-002	5	C	food	go2_sweet3.jpeg	299	fMRI	1	sweet	2	0	0	4	2	0.562	0
57	0.4	sub-002	5	C	food	post_go_fix	n/a	fMRI	n/a	n/a	n/a	n/a	n/a	n/a	n/a	n/a	n/a
57.4	4.6	sub-002	5	C	food	jitter_fix	n/a	fMRI	n/a	n/a	n/a	n/a	n/a	n/a	n/a	n/a	n/a
62	0.5	sub-002	5	C	food	sst_fix	n/a	fMRI	n/a	n/a	n/a	n/a	n/a	n/a	n/a	n/a	n/a
62.5	0.6	sub-002	5	C	food	go2_sweet1.jpeg	300	fMRI	1	sweet	2	0	0	4	2	0.575	0
63.1	0.4	sub-002	5	C	food	post_go_fix	n/a	fMRI	n/a	n/a	n/a	n/a	n/a	n/a	n/a	n/a	n/a
63.5	0.5	sub-002	5	C	food	jitter_fix	n/a	fMRI	n/a	n/a	n/a	n/a	n/a	n/a	n/a	n/a	n/a
64	0.5	sub-002	5	C	food	sst_fix	n/a	fMRI	n/a	n/a	n/a	n/a	n/a	n/a	n/a	n/a	n/a
64.5	0.9	sub-002	5	C	food	go1_sweet5.jpeg	301	fMRI	1	sweet	1	0	0	4	1	0.819	0
65.4	0.1	sub-002	5	C	food	post_go_fix	n/a	fMRI	n/a	n/a	n/a	n/a	n/a	n/a	n/a	n/a	n/a
65.5	2.6	sub-002	5	C	food	jitter_fix	n/a	fMRI	n/a	n/a	n/a	n/a	n/a	n/a	n/a	n/a	n/a
68.1	0.5	sub-002	5	C	food	sst_fix	n/a	fMRI	n/a	n/a	n/a	n/a	n/a	n/a	n/a	n/a	n/a
68.6	0.7	sub-002	5	C	food	go1_sweet2.jpeg	302	fMRI	1	sweet	1	0	0	4	1	0.712	0
69.3	0.3	sub-002	5	C	food	post_go_fix	n/a	fMRI	n/a	n/a	n/a	n/a	n/a	n/a	n/a	n/a	n/a
69.6	0.5	sub-002	5	C	food	jitter_fix	n/a	fMRI	n/a	n/a	n/a	n/a	n/a	n/a	n/a	n/a	n/a
70.1	0.6	sub-002	5	C	food	sst_fix	n/a	fMRI	n/a	n/a	n/a	n/a	n/a	n/a	n/a	n/a	n/a
70.7	0.3	sub-002	5	C	food	go1_sweet2.jpeg	303	fMRI	1	sweet	1	1	300	3	1	0.497	304
71	0.7	sub-002	5	C	food	sst_signal	n/a	fMRI	n/a	n/a	n/a	n/a	n/a	n/a	n/a	n/a	n/a
71.7	0.5	sub-002	5	C	food	jitter_fix	n/a	fMRI	n/a	n/a	n/a	n/a	n/a	n/a	n/a	n/a	n/a
72.2	0.5	sub-002	5	C	food	sst_fix	n/a	fMRI	n/a	n/a	n/a	n/a	n/a	n/a	n/a	n/a	n/a
72.7	0.6	sub-002	5	C	food	go2_sweet3.jpeg	304	fMRI	1	sweet	2	0	0	4	2	0.532	0
73.3	0.4	sub-002	5	C	food	post_go_fix	n/a	fMRI	n/a	n/a	n/a	n/a	n/a	n/a	n/a	n/a	n/a
73.7	0.6	sub-002	5	C	food	jitter_fix	n/a	fMRI	n/a	n/a	n/a	n/a	n/a	n/a	n/a	n/a	n/a
74.3	0.5	sub-002	5	C	food	sst_fix	n/a	fMRI	n/a	n/a	n/a	n/a	n/a	n/a	n/a	n/a	n/a
74.8	0.6	sub-002	5	C	food	go2_sweet5.jpeg	305	fMRI	1	sweet	2	0	0	4	2	0.615	0
75.4	0.4	sub-002	5	C	food	post_go_fix	n/a	fMRI	n/a	n/a	n/a	n/a	n/a	n/a	n/a	n/a	n/a
75.8	2.5	sub-002	5	C	food	jitter_fix	n/a	fMRI	n/a	n/a	n/a	n/a	n/a	n/a	n/a	n/a	n/a
78.3	0.5	sub-002	5	C	food	sst_fix	n/a	fMRI	n/a	n/a	n/a	n/a	n/a	n/a	n/a	n/a	n/a
78.8	0.5	sub-002	5	C	food	go1_sweet4.jpeg	306	fMRI	1	sweet	1	0	0	4	1	0.472	0
79.3	0.6	sub-002	5	C	food	post_go_fix	n/a	fMRI	n/a	n/a	n/a	n/a	n/a	n/a	n/a	n/a	n/a
79.9	4.5	sub-002	5	C	food	jitter_fix	n/a	fMRI	n/a	n/a	n/a	n/a	n/a	n/a	n/a	n/a	n/a
84.4	0.5	sub-002	5	C	food	sst_fix	n/a	fMRI	n/a	n/a	n/a	n/a	n/a	n/a	n/a	n/a	n/a
84.9	0.6	sub-002	5	C	food	go2_sweet3.jpeg	307	fMRI	1	sweet	2	0	0	4	2	0.56	0
85.5	0.4	sub-002	5	C	food	post_go_fix	n/a	fMRI	n/a	n/a	n/a	n/a	n/a	n/a	n/a	n/a	n/a
85.9	0.5	sub-002	5	C	food	jitter_fix	n/a	fMRI	n/a	n/a	n/a	n/a	n/a	n/a	n/a	n/a	n/a
86.4	0.6	sub-002	5	C	food	sst_fix	n/a	fMRI	n/a	n/a	n/a	n/a	n/a	n/a	n/a	n/a	n/a
87	0.6	sub-002	5	C	food	go2_sweet6.jpeg	308	fMRI	1	sweet	2	0	0	4	2	0.625	0
87.6	0.4	sub-002	5	C	food	post_go_fix	n/a	fMRI	n/a	n/a	n/a	n/a	n/a	n/a	n/a	n/a	n/a
88	0.5	sub-002	5	C	food	jitter_fix	n/a	fMRI	n/a	n/a	n/a	n/a	n/a	n/a	n/a	n/a	n/a
88.5	0.5	sub-002	5	C	food	sst_fix	n/a	fMRI	n/a	n/a	n/a	n/a	n/a	n/a	n/a	n/a	n/a
89	0.6	sub-002	5	C	food	go1_sweet2.jpeg	309	fMRI	1	sweet	1	0	0	4	1	0.593	0
89.6	0.4	sub-002	5	C	food	post_go_fix	n/a	fMRI	n/a	n/a	n/a	n/a	n/a	n/a	n/a	n/a	n/a
90	4.6	sub-002	5	C	food	jitter_fix	n/a	fMRI	n/a	n/a	n/a	n/a	n/a	n/a	n/a	n/a	n/a
94.6	0.5	sub-002	5	C	food	sst_fix	n/a	fMRI	n/a	n/a	n/a	n/a	n/a	n/a	n/a	n/a	n/a
95.1	0.2	sub-002	5	C	food	go2_sweet1.jpeg	310	fMRI	1	sweet	2	1	250	3	2	0.502	254
95.3	0.8	sub-002	5	C	food	sst_signal	n/a	fMRI	n/a	n/a	n/a	n/a	n/a	n/a	n/a	n/a	n/a
96.1	0.5	sub-002	5	C	food	jitter_fix	n/a	fMRI	n/a	n/a	n/a	n/a	n/a	n/a	n/a	n/a	n/a
96.6	0.5	sub-002	5	C	food	sst_fix	n/a	fMRI	n/a	n/a	n/a	n/a	n/a	n/a	n/a	n/a	n/a
97.1	0.2	sub-002	5	C	food	go2_sweet6.jpeg	311	fMRI	1	sweet	2	1	200	4	0	n/a	205
97.3	0.9	sub-002	5	C	food	sst_signal	n/a	fMRI	n/a	n/a	n/a	n/a	n/a	n/a	n/a	n/a	n/a
98.2	2.5	sub-002	5	C	food	jitter_fix	n/a	fMRI	n/a	n/a	n/a	n/a	n/a	n/a	n/a	n/a	n/a
100.7	0.5	sub-002	5	C	food	sst_fix	n/a	fMRI	n/a	n/a	n/a	n/a	n/a	n/a	n/a	n/a	n/a
101.2	0.7	sub-002	5	C	food	go2_sweet5.jpeg	312	fMRI	1	sweet	2	0	0	2	1	0.689	0
101.9	0.3	sub-002	5	C	food	post_go_fix	n/a	fMRI	n/a	n/a	n/a	n/a	n/a	n/a	n/a	n/a	n/a
102.2	2.5	sub-002	5	C	food	jitter_fix	n/a	fMRI	n/a	n/a	n/a	n/a	n/a	n/a	n/a	n/a	n/a
104.7	0.6	sub-002	5	C	food	sst_fix	n/a	fMRI	n/a	n/a	n/a	n/a	n/a	n/a	n/a	n/a	n/a
105.3	0.2	sub-002	5	C	food	go2_sweet3.jpeg	313	fMRI	1	sweet	2	1	250	3	2	0.486	252
105.5	0.8	sub-002	5	C	food	sst_signal	n/a	fMRI	n/a	n/a	n/a	n/a	n/a	n/a	n/a	n/a	n/a
106.3	0.5	sub-002	5	C	food	jitter_fix	n/a	fMRI	n/a	n/a	n/a	n/a	n/a	n/a	n/a	n/a	n/a
106.8	0.5	sub-002	5	C	food	sst_fix	n/a	fMRI	n/a	n/a	n/a	n/a	n/a	n/a	n/a	n/a	n/a
107.3	0.7	sub-002	5	C	food	go1_sweet1.jpeg	314	fMRI	1	sweet	1	0	0	2	2	0.65	0
108	0.3	sub-002	5	C	food	post_go_fix	n/a	fMRI	n/a	n/a	n/a	n/a	n/a	n/a	n/a	n/a	n/a
108.3	0.6	sub-002	5	C	food	jitter_fix	n/a	fMRI	n/a	n/a	n/a	n/a	n/a	n/a	n/a	n/a	n/a
108.9	0.5	sub-002	5	C	food	sst_fix	n/a	fMRI	n/a	n/a	n/a	n/a	n/a	n/a	n/a	n/a	n/a
109.4	0.5	sub-002	5	C	food	go2_sweet4.jpeg	315	fMRI	1	sweet	2	0	0	4	2	0.558	0
109.9	0.5	sub-002	5	C	food	post_go_fix	n/a	fMRI	n/a	n/a	n/a	n/a	n/a	n/a	n/a	n/a	n/a
110.4	2.5	sub-002	5	C	food	jitter_fix	n/a	fMRI	n/a	n/a	n/a	n/a	n/a	n/a	n/a	n/a	n/a
112.9	0.5	sub-002	5	C	food	sst_fix	n/a	fMRI	n/a	n/a	n/a	n/a	n/a	n/a	n/a	n/a	n/a
113.4	0.2	sub-002	5	C	food	go2_sweet4.jpeg	316	fMRI	1	sweet	2	1	200	4	0	n/a	203
113.6	0.8	sub-002	5	C	food	sst_signal	n/a	fMRI	n/a	n/a	n/a	n/a	n/a	n/a	n/a	n/a	n/a
114.4	0.6	sub-002	5	C	food	jitter_fix	n/a	fMRI	n/a	n/a	n/a	n/a	n/a	n/a	n/a	n/a	n/a
115	0.5	sub-002	5	C	food	sst_fix	n/a	fMRI	n/a	n/a	n/a	n/a	n/a	n/a	n/a	n/a	n/a
115.5	0.2	sub-002	5	C	food	go1_sweet4.jpeg	317	fMRI	1	sweet	1	1	250	4	0	n/a	254
115.7	0.8	sub-002	5	C	food	sst_signal	n/a	fMRI	n/a	n/a	n/a	n/a	n/a	n/a	n/a	n/a	n/a
116.5	2.5	sub-002	5	C	food	jitter_fix	n/a	fMRI	n/a	n/a	n/a	n/a	n/a	n/a	n/a	n/a	n/a
119	0.6	sub-002	5	C	food	sst_fix	n/a	fMRI	n/a	n/a	n/a	n/a	n/a	n/a	n/a	n/a	n/a
119.6	0.7	sub-002	5	C	food	go1_sweet1.jpeg	318	fMRI	1	sweet	1	0	0	4	1	0.729	0
120.3	0.3	sub-002	5	C	food	post_go_fix	n/a	fMRI	n/a	n/a	n/a	n/a	n/a	n/a	n/a	n/a	n/a
120.6	0.5	sub-002	5	C	food	jitter_fix	n/a	fMRI	n/a	n/a	n/a	n/a	n/a	n/a	n/a	n/a	n/a
121.1	0.5	sub-002	5	C	food	sst_fix	n/a	fMRI	n/a	n/a	n/a	n/a	n/a	n/a	n/a	n/a	n/a
121.6	0.7	sub-002	5	C	food	go1_sweet6.jpeg	319	fMRI	1	sweet	1	0	0	4	1	0.661	0
122.3	0.3	sub-002	5	C	food	post_go_fix	n/a	fMRI	n/a	n/a	n/a	n/a	n/a	n/a	n/a	n/a	n/a
122.6	0.6	sub-002	5	C	food	jitter_fix	n/a	fMRI	n/a	n/a	n/a	n/a	n/a	n/a	n/a	n/a	n/a
123.2	0.5	sub-002	5	C	food	sst_fix	n/a	fMRI	n/a	n/a	n/a	n/a	n/a	n/a	n/a	n/a	n/a
123.7	0.3	sub-002	5	C	food	go1_sweet2.jpeg	320	fMRI	1	sweet	1	1	300	3	1	0.526	303
124	0.7	sub-002	5	C	food	sst_signal	n/a	fMRI	n/a	n/a	n/a	n/a	n/a	n/a	n/a	n/a	n/a
124.7	0.5	sub-002	5	C	food	jitter_fix	n/a	fMRI	n/a	n/a	n/a	n/a	n/a	n/a	n/a	n/a	n/a
125.2	0.5	sub-002	5	C	food	sst_fix	n/a	fMRI	n/a	n/a	n/a	n/a	n/a	n/a	n/a	n/a	n/a
125.7	0.7	sub-002	5	C	food	go2_sweet4.jpeg	321	fMRI	1	sweet	2	0	0	4	2	0.682	0
126.4	0.3	sub-002	5	C	food	post_go_fix	n/a	fMRI	n/a	n/a	n/a	n/a	n/a	n/a	n/a	n/a	n/a
126.7	0.6	sub-002	5	C	food	jitter_fix	n/a	fMRI	n/a	n/a	n/a	n/a	n/a	n/a	n/a	n/a	n/a
127.3	0.5	sub-002	5	C	food	sst_fix	n/a	fMRI	n/a	n/a	n/a	n/a	n/a	n/a	n/a	n/a	n/a
127.8	0.2	sub-002	5	C	food	go1_sweet6.jpeg	322	fMRI	1	sweet	1	1	250	4	0	n/a	253
128	0.8	sub-002	5	C	food	sst_signal	n/a	fMRI	n/a	n/a	n/a	n/a	n/a	n/a	n/a	n/a	n/a
128.8	2.5	sub-002	5	C	food	jitter_fix	n/a	fMRI	n/a	n/a	n/a	n/a	n/a	n/a	n/a	n/a	n/a
131.3	0.6	sub-002	5	C	food	sst_fix	n/a	fMRI	n/a	n/a	n/a	n/a	n/a	n/a	n/a	n/a	n/a
131.9	0.5	sub-002	5	C	food	go1_sweet2.jpeg	323	fMRI	1	sweet	1	0	0	4	1	0.525	0
132.4	0.5	sub-002	5	C	food	post_go_fix	n/a	fMRI	n/a	n/a	n/a	n/a	n/a	n/a	n/a	n/a	n/a
132.9	2.5	sub-002	5	C	food	jitter_fix	n/a	fMRI	n/a	n/a	n/a	n/a	n/a	n/a	n/a	n/a	n/a
135.4	0.5	sub-002	5	C	food	sst_fix	n/a	fMRI	n/a	n/a	n/a	n/a	n/a	n/a	n/a	n/a	n/a
135.9	0.3	sub-002	5	C	food	go1_sweet3.jpeg	324	fMRI	1	sweet	1	1	300	4	0	n/a	302
136.2	0.7	sub-002	5	C	food	sst_signal	n/a	fMRI	n/a	n/a	n/a	n/a	n/a	n/a	n/a	n/a	n/a
136.9	0.6	sub-002	5	C	food	jitter_fix	n/a	fMRI	n/a	n/a	n/a	n/a	n/a	n/a	n/a	n/a	n/a
137.5	10	sub-002	5	C	food	fix	n/a	fMRI	n/a	n/a	n/a	n/a	n/a	n/a	n/a	n/a	n/a
147.5	2.2	sub-002	5	C	food	c2_instruct	n/a	fMRI	n/a	n/a	n/a	n/a	n/a	n/a	n/a	n/a	n/a
149.7	15	sub-002	5	C	food	setC_food1.mp4	n/a	fMRI	n/a	n/a	n/a	n/a	n/a	n/a	n/a	n/a	n/a
164.7	10	sub-002	5	C	food	fix	n/a	fMRI	n/a	n/a	n/a	n/a	n/a	n/a	n/a	n/a	n/a
174.7	2.1	sub-002	5	C	food	sst_instruct	n/a	fMRI	n/a	n/a	n/a	n/a	n/a	n/a	n/a	n/a	n/a
176.8	0.5	sub-002	5	C	food	sst_fix	n/a	fMRI	n/a	n/a	n/a	n/a	n/a	n/a	n/a	n/a	n/a
177.3	0.4	sub-002	5	C	food	go2_savory6.jpeg	325	fMRI	2	savory	2	1	350	4	0	n/a	351
177.7	0.6	sub-002	5	C	food	sst_signal	n/a	fMRI	n/a	n/a	n/a	n/a	n/a	n/a	n/a	n/a	n/a
178.3	0.6	sub-002	5	C	food	jitter_fix	n/a	fMRI	n/a	n/a	n/a	n/a	n/a	n/a	n/a	n/a	n/a
178.9	0.5	sub-002	5	C	food	sst_fix	n/a	fMRI	n/a	n/a	n/a	n/a	n/a	n/a	n/a	n/a	n/a
179.4	0.4	sub-002	5	C	food	go1_savory5.jpeg	326	fMRI	2	savory	1	1	400	3	1	0.61	402
179.8	0.6	sub-002	5	C	food	sst_signal	n/a	fMRI	n/a	n/a	n/a	n/a	n/a	n/a	n/a	n/a	n/a
180.4	0.5	sub-002	5	C	food	jitter_fix	n/a	fMRI	n/a	n/a	n/a	n/a	n/a	n/a	n/a	n/a	n/a
180.9	0.5	sub-002	5	C	food	sst_fix	n/a	fMRI	n/a	n/a	n/a	n/a	n/a	n/a	n/a	n/a	n/a
181.4	0.7	sub-002	5	C	food	go2_savory6.jpeg	327	fMRI	2	savory	2	0	0	4	2	0.635	0
182.1	0.4	sub-002	5	C	food	post_go_fix	n/a	fMRI	n/a	n/a	n/a	n/a	n/a	n/a	n/a	n/a	n/a
182.5	0.5	sub-002	5	C	food	jitter_fix	n/a	fMRI	n/a	n/a	n/a	n/a	n/a	n/a	n/a	n/a	n/a
183	0.5	sub-002	5	C	food	sst_fix	n/a	fMRI	n/a	n/a	n/a	n/a	n/a	n/a	n/a	n/a	n/a
183.5	0.4	sub-002	5	C	food	go1_savory3.jpeg	328	fMRI	2	savory	1	1	350	4	0	n/a	353
183.9	0.6	sub-002	5	C	food	sst_signal	n/a	fMRI	n/a	n/a	n/a	n/a	n/a	n/a	n/a	n/a	n/a
184.5	4.5	sub-002	5	C	food	jitter_fix	n/a	fMRI	n/a	n/a	n/a	n/a	n/a	n/a	n/a	n/a	n/a
189	0.6	sub-002	5	C	food	sst_fix	n/a	fMRI	n/a	n/a	n/a	n/a	n/a	n/a	n/a	n/a	n/a
189.6	0.5	sub-002	5	C	food	go1_savory2.jpeg	329	fMRI	2	savory	1	0	0	4	1	0.566	0
190.1	0.5	sub-002	5	C	food	post_go_fix	n/a	fMRI	n/a	n/a	n/a	n/a	n/a	n/a	n/a	n/a	n/a
190.6	2.5	sub-002	5	C	food	jitter_fix	n/a	fMRI	n/a	n/a	n/a	n/a	n/a	n/a	n/a	n/a	n/a
193.1	0.5	sub-002	5	C	food	sst_fix	n/a	fMRI	n/a	n/a	n/a	n/a	n/a	n/a	n/a	n/a	n/a
193.6	1	sub-002	5	C	food	go2_savory5.jpeg	330	fMRI	2	savory	2	0	0	1	0	n/a	0
194.6	0.6	sub-002	5	C	food	jitter_fix	n/a	fMRI	n/a	n/a	n/a	n/a	n/a	n/a	n/a	n/a	n/a
195.2	0.5	sub-002	5	C	food	sst_fix	n/a	fMRI	n/a	n/a	n/a	n/a	n/a	n/a	n/a	n/a	n/a
195.7	0.7	sub-002	5	C	food	go2_savory4.jpeg	331	fMRI	2	savory	2	0	0	4	2	0.651	0
196.4	0.3	sub-002	5	C	food	post_go_fix	n/a	fMRI	n/a	n/a	n/a	n/a	n/a	n/a	n/a	n/a	n/a
196.7	0.5	sub-002	5	C	food	jitter_fix	n/a	fMRI	n/a	n/a	n/a	n/a	n/a	n/a	n/a	n/a	n/a
197.2	0.6	sub-002	5	C	food	sst_fix	n/a	fMRI	n/a	n/a	n/a	n/a	n/a	n/a	n/a	n/a	n/a
197.8	0.4	sub-002	5	C	food	go1_savory4.jpeg	332	fMRI	2	savory	1	1	400	3	1	0.538	403
198.2	0.6	sub-002	5	C	food	sst_signal	n/a	fMRI	n/a	n/a	n/a	n/a	n/a	n/a	n/a	n/a	n/a
198.8	0.5	sub-002	5	C	food	jitter_fix	n/a	fMRI	n/a	n/a	n/a	n/a	n/a	n/a	n/a	n/a	n/a
199.3	0.5	sub-002	5	C	food	sst_fix	n/a	fMRI	n/a	n/a	n/a	n/a	n/a	n/a	n/a	n/a	n/a
199.8	1	sub-002	5	C	food	go2_savory4.jpeg	333	fMRI	2	savory	2	0	0	1	0	n/a	0
200.8	2.6	sub-002	5	C	food	jitter_fix	n/a	fMRI	n/a	n/a	n/a	n/a	n/a	n/a	n/a	n/a	n/a
203.4	0.5	sub-002	5	C	food	sst_fix	n/a	fMRI	n/a	n/a	n/a	n/a	n/a	n/a	n/a	n/a	n/a
203.9	0.8	sub-002	5	C	food	go1_savory2.jpeg	334	fMRI	2	savory	1	0	0	4	1	0.839	0
204.7	0.2	sub-002	5	C	food	post_go_fix	n/a	fMRI	n/a	n/a	n/a	n/a	n/a	n/a	n/a	n/a	n/a
204.9	0.5	sub-002	5	C	food	jitter_fix	n/a	fMRI	n/a	n/a	n/a	n/a	n/a	n/a	n/a	n/a	n/a
205.4	0.5	sub-002	5	C	food	sst_fix	n/a	fMRI	n/a	n/a	n/a	n/a	n/a	n/a	n/a	n/a	n/a
205.9	0.6	sub-002	5	C	food	go1_savory6.jpeg	335	fMRI	2	savory	1	0	0	4	1	0.541	0
206.5	0.4	sub-002	5	C	food	post_go_fix	n/a	fMRI	n/a	n/a	n/a	n/a	n/a	n/a	n/a	n/a	n/a
206.9	0.6	sub-002	5	C	food	jitter_fix	n/a	fMRI	n/a	n/a	n/a	n/a	n/a	n/a	n/a	n/a	n/a
207.5	0.5	sub-002	5	C	food	sst_fix	n/a	fMRI	n/a	n/a	n/a	n/a	n/a	n/a	n/a	n/a	n/a
208	0.5	sub-002	5	C	food	go1_savory4.jpeg	336	fMRI	2	savory	1	0	0	4	1	0.464	0
208.5	0.5	sub-002	5	C	food	post_go_fix	n/a	fMRI	n/a	n/a	n/a	n/a	n/a	n/a	n/a	n/a	n/a
209	2.5	sub-002	5	C	food	jitter_fix	n/a	fMRI	n/a	n/a	n/a	n/a	n/a	n/a	n/a	n/a	n/a
211.5	0.6	sub-002	5	C	food	sst_fix	n/a	fMRI	n/a	n/a	n/a	n/a	n/a	n/a	n/a	n/a	n/a
212.1	0.6	sub-002	5	C	food	go2_savory6.jpeg	337	fMRI	2	savory	2	0	0	4	2	0.667	0
212.7	0.4	sub-002	5	C	food	post_go_fix	n/a	fMRI	n/a	n/a	n/a	n/a	n/a	n/a	n/a	n/a	n/a
213.1	2.5	sub-002	5	C	food	jitter_fix	n/a	fMRI	n/a	n/a	n/a	n/a	n/a	n/a	n/a	n/a	n/a
215.6	0.5	sub-002	5	C	food	sst_fix	n/a	fMRI	n/a	n/a	n/a	n/a	n/a	n/a	n/a	n/a	n/a
216.1	0.4	sub-002	5	C	food	go1_savory1.jpeg	338	fMRI	2	savory	1	1	350	3	1	0.584	355
216.5	0.6	sub-002	5	C	food	sst_signal	n/a	fMRI	n/a	n/a	n/a	n/a	n/a	n/a	n/a	n/a	n/a
217.1	0.6	sub-002	5	C	food	jitter_fix	n/a	fMRI	n/a	n/a	n/a	n/a	n/a	n/a	n/a	n/a	n/a
217.7	0.5	sub-002	5	C	food	sst_fix	n/a	fMRI	n/a	n/a	n/a	n/a	n/a	n/a	n/a	n/a	n/a
218.2	1	sub-002	5	C	food	go2_savory6.jpeg	339	fMRI	2	savory	2	0	0	1	0	n/a	0
219.2	0.5	sub-002	5	C	food	jitter_fix	n/a	fMRI	n/a	n/a	n/a	n/a	n/a	n/a	n/a	n/a	n/a
219.7	0.5	sub-002	5	C	food	sst_fix	n/a	fMRI	n/a	n/a	n/a	n/a	n/a	n/a	n/a	n/a	n/a
220.2	0.5	sub-002	5	C	food	go1_savory5.jpeg	340	fMRI	2	savory	1	0	0	4	1	0.455	0
220.7	0.6	sub-002	5	C	food	post_go_fix	n/a	fMRI	n/a	n/a	n/a	n/a	n/a	n/a	n/a	n/a	n/a
221.3	0.5	sub-002	5	C	food	jitter_fix	n/a	fMRI	n/a	n/a	n/a	n/a	n/a	n/a	n/a	n/a	n/a
221.8	0.5	sub-002	5	C	food	sst_fix	n/a	fMRI	n/a	n/a	n/a	n/a	n/a	n/a	n/a	n/a	n/a
222.3	0.9	sub-002	5	C	food	go1_savory3.jpeg	341	fMRI	2	savory	1	0	0	4	1	0.908	0
223.2	0.1	sub-002	5	C	food	post_go_fix	n/a	fMRI	n/a	n/a	n/a	n/a	n/a	n/a	n/a	n/a	n/a
223.3	2.5	sub-002	5	C	food	jitter_fix	n/a	fMRI	n/a	n/a	n/a	n/a	n/a	n/a	n/a	n/a	n/a
225.8	0.6	sub-002	5	C	food	sst_fix	n/a	fMRI	n/a	n/a	n/a	n/a	n/a	n/a	n/a	n/a	n/a
226.4	0.3	sub-002	5	C	food	go2_savory6.jpeg	342	fMRI	2	savory	2	1	300	3	2	0.622	304
226.7	0.7	sub-002	5	C	food	sst_signal	n/a	fMRI	n/a	n/a	n/a	n/a	n/a	n/a	n/a	n/a	n/a
227.4	0.5	sub-002	5	C	food	jitter_fix	n/a	fMRI	n/a	n/a	n/a	n/a	n/a	n/a	n/a	n/a	n/a
227.9	0.5	sub-002	5	C	food	sst_fix	n/a	fMRI	n/a	n/a	n/a	n/a	n/a	n/a	n/a	n/a	n/a
228.4	0.7	sub-002	5	C	food	go2_savory3.jpeg	343	fMRI	2	savory	2	0	0	4	2	0.664	0
229.1	0.3	sub-002	5	C	food	post_go_fix	n/a	fMRI	n/a	n/a	n/a	n/a	n/a	n/a	n/a	n/a	n/a
229.4	2.6	sub-002	5	C	food	jitter_fix	n/a	fMRI	n/a	n/a	n/a	n/a	n/a	n/a	n/a	n/a	n/a
232	0.5	sub-002	5	C	food	sst_fix	n/a	fMRI	n/a	n/a	n/a	n/a	n/a	n/a	n/a	n/a	n/a
232.5	0.5	sub-002	5	C	food	go1_savory2.jpeg	344	fMRI	2	savory	1	0	0	2	2	0.459	0
233	0.5	sub-002	5	C	food	post_go_fix	n/a	fMRI	n/a	n/a	n/a	n/a	n/a	n/a	n/a	n/a	n/a
233.5	0.5	sub-002	5	C	food	jitter_fix	n/a	fMRI	n/a	n/a	n/a	n/a	n/a	n/a	n/a	n/a	n/a
234	0.5	sub-002	5	C	food	sst_fix	n/a	fMRI	n/a	n/a	n/a	n/a	n/a	n/a	n/a	n/a	n/a
234.5	1.1	sub-002	5	C	food	go1_savory2.jpeg	345	fMRI	2	savory	1	0	0	1	0	n/a	0
235.6	0.5	sub-002	5	C	food	jitter_fix	n/a	fMRI	n/a	n/a	n/a	n/a	n/a	n/a	n/a	n/a	n/a
236.1	0.5	sub-002	5	C	food	sst_fix	n/a	fMRI	n/a	n/a	n/a	n/a	n/a	n/a	n/a	n/a	n/a
236.6	0.7	sub-002	5	C	food	go2_savory3.jpeg	346	fMRI	2	savory	2	0	0	4	2	0.679	0
237.3	0.3	sub-002	5	C	food	post_go_fix	n/a	fMRI	n/a	n/a	n/a	n/a	n/a	n/a	n/a	n/a	n/a
237.6	0.5	sub-002	5	C	food	jitter_fix	n/a	fMRI	n/a	n/a	n/a	n/a	n/a	n/a	n/a	n/a	n/a
238.1	0.6	sub-002	5	C	food	sst_fix	n/a	fMRI	n/a	n/a	n/a	n/a	n/a	n/a	n/a	n/a	n/a
238.7	0.2	sub-002	5	C	food	go2_savory2.jpeg	347	fMRI	2	savory	2	1	250	4	0	n/a	254
238.9	0.8	sub-002	5	C	food	sst_signal	n/a	fMRI	n/a	n/a	n/a	n/a	n/a	n/a	n/a	n/a	n/a
239.7	4.5	sub-002	5	C	food	jitter_fix	n/a	fMRI	n/a	n/a	n/a	n/a	n/a	n/a	n/a	n/a	n/a
244.2	0.5	sub-002	5	C	food	sst_fix	n/a	fMRI	n/a	n/a	n/a	n/a	n/a	n/a	n/a	n/a	n/a
244.7	0.6	sub-002	5	C	food	go2_savory1.jpeg	348	fMRI	2	savory	2	0	0	4	2	0.512	0
245.3	0.4	sub-002	5	C	food	post_go_fix	n/a	fMRI	n/a	n/a	n/a	n/a	n/a	n/a	n/a	n/a	n/a
245.7	0.6	sub-002	5	C	food	jitter_fix	n/a	fMRI	n/a	n/a	n/a	n/a	n/a	n/a	n/a	n/a	n/a
246.3	0.5	sub-002	5	C	food	sst_fix	n/a	fMRI	n/a	n/a	n/a	n/a	n/a	n/a	n/a	n/a	n/a
246.8	0.6	sub-002	5	C	food	go2_savory2.jpeg	349	fMRI	2	savory	2	0	0	4	2	0.599	0
247.4	0.4	sub-002	5	C	food	post_go_fix	n/a	fMRI	n/a	n/a	n/a	n/a	n/a	n/a	n/a	n/a	n/a
247.8	4.5	sub-002	5	C	food	jitter_fix	n/a	fMRI	n/a	n/a	n/a	n/a	n/a	n/a	n/a	n/a	n/a
252.3	0.6	sub-002	5	C	food	sst_fix	n/a	fMRI	n/a	n/a	n/a	n/a	n/a	n/a	n/a	n/a	n/a
252.9	0.6	sub-002	5	C	food	go2_savory5.jpeg	350	fMRI	2	savory	2	0	0	4	2	0.612	0
253.5	0.4	sub-002	5	C	food	post_go_fix	n/a	fMRI	n/a	n/a	n/a	n/a	n/a	n/a	n/a	n/a	n/a
253.9	0.5	sub-002	5	C	food	jitter_fix	n/a	fMRI	n/a	n/a	n/a	n/a	n/a	n/a	n/a	n/a	n/a
254.4	0.5	sub-002	5	C	food	sst_fix	n/a	fMRI	n/a	n/a	n/a	n/a	n/a	n/a	n/a	n/a	n/a
254.9	0.8	sub-002	5	C	food	go1_savory1.jpeg	351	fMRI	2	savory	1	0	0	4	1	0.739	0
255.7	0.2	sub-002	5	C	food	post_go_fix	n/a	fMRI	n/a	n/a	n/a	n/a	n/a	n/a	n/a	n/a	n/a
255.9	2.5	sub-002	5	C	food	jitter_fix	n/a	fMRI	n/a	n/a	n/a	n/a	n/a	n/a	n/a	n/a	n/a
258.4	0.6	sub-002	5	C	food	sst_fix	n/a	fMRI	n/a	n/a	n/a	n/a	n/a	n/a	n/a	n/a	n/a
259	0.5	sub-002	5	C	food	go2_savory6.jpeg	352	fMRI	2	savory	2	0	0	4	2	0.564	0
259.5	0.5	sub-002	5	C	food	post_go_fix	n/a	fMRI	n/a	n/a	n/a	n/a	n/a	n/a	n/a	n/a	n/a
260	2.5	sub-002	5	C	food	jitter_fix	n/a	fMRI	n/a	n/a	n/a	n/a	n/a	n/a	n/a	n/a	n/a
262.5	0.5	sub-002	5	C	food	sst_fix	n/a	fMRI	n/a	n/a	n/a	n/a	n/a	n/a	n/a	n/a	n/a
263	0.6	sub-002	5	C	food	go1_savory3.jpeg	353	fMRI	2	savory	1	0	0	4	1	0.536	0
263.6	0.4	sub-002	5	C	food	post_go_fix	n/a	fMRI	n/a	n/a	n/a	n/a	n/a	n/a	n/a	n/a	n/a
264	0.6	sub-002	5	C	food	jitter_fix	n/a	fMRI	n/a	n/a	n/a	n/a	n/a	n/a	n/a	n/a	n/a
264.6	0.5	sub-002	5	C	food	sst_fix	n/a	fMRI	n/a	n/a	n/a	n/a	n/a	n/a	n/a	n/a	n/a
265.1	0.3	sub-002	5	C	food	go1_savory5.jpeg	354	fMRI	2	savory	1	1	300	3	1	0.573	302
265.4	0.7	sub-002	5	C	food	sst_signal	n/a	fMRI	n/a	n/a	n/a	n/a	n/a	n/a	n/a	n/a	n/a
266.1	0.5	sub-002	5	C	food	jitter_fix	n/a	fMRI	n/a	n/a	n/a	n/a	n/a	n/a	n/a	n/a	n/a
266.6	0.5	sub-002	5	C	food	sst_fix	n/a	fMRI	n/a	n/a	n/a	n/a	n/a	n/a	n/a	n/a	n/a
267.1	0.5	sub-002	5	C	food	go1_savory4.jpeg	355	fMRI	2	savory	1	0	0	4	1	0.435	0
267.6	0.5	sub-002	5	C	food	post_go_fix	n/a	fMRI	n/a	n/a	n/a	n/a	n/a	n/a	n/a	n/a	n/a
268.1	4.6	sub-002	5	C	food	jitter_fix	n/a	fMRI	n/a	n/a	n/a	n/a	n/a	n/a	n/a	n/a	n/a
272.7	0.5	sub-002	5	C	food	sst_fix	n/a	fMRI	n/a	n/a	n/a	n/a	n/a	n/a	n/a	n/a	n/a
273.2	0.6	sub-002	5	C	food	go2_savory1.jpeg	356	fMRI	2	savory	2	0	0	4	2	0.57	0
273.8	0.4	sub-002	5	C	food	post_go_fix	n/a	fMRI	n/a	n/a	n/a	n/a	n/a	n/a	n/a	n/a	n/a
274.2	0.5	sub-002	5	C	food	jitter_fix	n/a	fMRI	n/a	n/a	n/a	n/a	n/a	n/a	n/a	n/a	n/a
274.7	0.5	sub-002	5	C	food	sst_fix	n/a	fMRI	n/a	n/a	n/a	n/a	n/a	n/a	n/a	n/a	n/a
275.2	0.3	sub-002	5	C	food	go2_savory4.jpeg	357	fMRI	2	savory	2	1	250	3	2	0.472	252
275.5	0.8	sub-002	5	C	food	sst_signal	n/a	fMRI	n/a	n/a	n/a	n/a	n/a	n/a	n/a	n/a	n/a
276.3	0.5	sub-002	5	C	food	jitter_fix	n/a	fMRI	n/a	n/a	n/a	n/a	n/a	n/a	n/a	n/a	n/a
276.8	0.5	sub-002	5	C	food	sst_fix	n/a	fMRI	n/a	n/a	n/a	n/a	n/a	n/a	n/a	n/a	n/a
277.3	0.2	sub-002	5	C	food	go2_savory2.jpeg	358	fMRI	2	savory	2	1	200	3	2	0.564	204
277.5	0.8	sub-002	5	C	food	sst_signal	n/a	fMRI	n/a	n/a	n/a	n/a	n/a	n/a	n/a	n/a	n/a
278.3	0.5	sub-002	5	C	food	jitter_fix	n/a	fMRI	n/a	n/a	n/a	n/a	n/a	n/a	n/a	n/a	n/a
278.8	0.6	sub-002	5	C	food	sst_fix	n/a	fMRI	n/a	n/a	n/a	n/a	n/a	n/a	n/a	n/a	n/a
279.4	0.6	sub-002	5	C	food	go1_savory5.jpeg	359	fMRI	2	savory	1	0	0	2	2	0.654	0
280	0.4	sub-002	5	C	food	post_go_fix	n/a	fMRI	n/a	n/a	n/a	n/a	n/a	n/a	n/a	n/a	n/a
280.4	0.5	sub-002	5	C	food	jitter_fix	n/a	fMRI	n/a	n/a	n/a	n/a	n/a	n/a	n/a	n/a	n/a
280.9	0.5	sub-002	5	C	food	sst_fix	n/a	fMRI	n/a	n/a	n/a	n/a	n/a	n/a	n/a	n/a	n/a
281.4	1.1	sub-002	5	C	food	go1_savory1.jpeg	360	fMRI	2	savory	1	0	0	1	0	n/a	0
282.5	0.5	sub-002	5	C	food	jitter_fix	n/a	fMRI	n/a	n/a	n/a	n/a	n/a	n/a	n/a	n/a	n/a
283	10	sub-002	5	C	food	fix	n/a	fMRI	n/a	n/a	n/a	n/a	n/a	n/a	n/a	n/a	n/a
