onset	duration	sub	run_num	set	run_cond	stim_file_name	trial_num	type	block	img_cat	go_stim	signal	reqSSD	correct	response	response_time	trueSSD
0	2	sub-002	6	E	toy	wait	n/a	fMRI	n/a	n/a	n/a	n/a	n/a	n/a	n/a	n/a	n/a
2	2.2	sub-002	6	E	toy	c1_instruct	n/a	fMRI	n/a	n/a	n/a	n/a	n/a	n/a	n/a	n/a	n/a
4.2	15.8	sub-002	6	E	toy	setE_toy1.mp4	n/a	fMRI	n/a	n/a	n/a	n/a	n/a	n/a	n/a	n/a	n/a
20	10	sub-002	6	E	toy	fix	n/a	fMRI	n/a	n/a	n/a	n/a	n/a	n/a	n/a	n/a	n/a
30	2.1	sub-002	6	E	toy	sst_instruct	n/a	fMRI	n/a	n/a	n/a	n/a	n/a	n/a	n/a	n/a	n/a
32.1	0.6	sub-002	6	E	toy	sst_fix	n/a	fMRI	n/a	n/a	n/a	n/a	n/a	n/a	n/a	n/a	n/a
32.7	0.7	sub-002	6	E	toy	go1_savory5.jpeg	361	fMRI	1	savory	1	0	0	4	1	0.713	0
33.4	0.3	sub-002	6	E	toy	post_go_fix	n/a	fMRI	n/a	n/a	n/a	n/a	n/a	n/a	n/a	n/a	n/a
33.7	0.5	sub-002	6	E	toy	jitter_fix	n/a	fMRI	n/a	n/a	n/a	n/a	n/a	n/a	n/a	n/a	n/a
34.2	0.5	sub-002	6	E	toy	sst_fix	n/a	fMRI	n/a	n/a	n/a	n/a	n/a	n/a	n/a	n/a	n/a
34.7	0.5	sub-002	6	E	toy	go1_savory5.jpeg	362	fMRI	1	savory	1	0	0	2	2	0.431	0
35.2	0.6	sub-002	6	E	toy	post_go_fix	n/a	fMRI	n/a	n/a	n/a	n/a	n/a	n/a	n/a	n/a	n/a
35.8	0.5	sub-002	6	E	toy	jitter_fix	n/a	fMRI	n/a	n/a	n/a	n/a	n/a	n/a	n/a	n/a	n/a
36.3	0.5	sub-002	6	E	toy	sst_fix	n/a	fMRI	n/a	n/a	n/a	n/a	n/a	n/a	n/a	n/a	n/a
36.8	0.5	sub-002	6	E	toy	go2_savory2.jpeg	363	fMRI	1	savory	2	0	0	4	2	0.496	0
37.3	0.5	sub-002	6	E	toy	post_go_fix	n/a	fMRI	n/a	n/a	n/a	n/a	n/a	n/a	n/a	n/a	n/a
37.8	0.6	sub-002	6	E	toy	jitter_fix	n/a	fMRI	n/a	n/a	n/a	n/a	n/a	n/a	n/a	n/a	n/a
38.4	0.5	sub-002	6	E	toy	sst_fix	n/a	fMRI	n/a	n/a	n/a	n/a	n/a	n/a	n/a	n/a	n/a
38.9	0.5	sub-002	6	E	toy	go1_savory6.jpeg	364	fMRI	1	savory	1	0	0	4	1	0.498	0
39.4	0.5	sub-002	6	E	toy	post_go_fix	n/a	fMRI	n/a	n/a	n/a	n/a	n/a	n/a	n/a	n/a	n/a
39.9	0.5	sub-002	6	E	toy	jitter_fix	n/a	fMRI	n/a	n/a	n/a	n/a	n/a	n/a	n/a	n/a	n/a
40.4	0.5	sub-002	6	E	toy	sst_fix	n/a	fMRI	n/a	n/a	n/a	n/a	n/a	n/a	n/a	n/a	n/a
40.9	0.3	sub-002	6	E	toy	go1_savory4.jpeg	365	fMRI	1	savory	1	1	250	3	1	0.603	254
41.2	0.8	sub-002	6	E	toy	sst_signal	n/a	fMRI	n/a	n/a	n/a	n/a	n/a	n/a	n/a	n/a	n/a
42	2.5	sub-002	6	E	toy	jitter_fix	n/a	fMRI	n/a	n/a	n/a	n/a	n/a	n/a	n/a	n/a	n/a
44.5	0.5	sub-002	6	E	toy	sst_fix	n/a	fMRI	n/a	n/a	n/a	n/a	n/a	n/a	n/a	n/a	n/a
45	0.6	sub-002	6	E	toy	go1_savory4.jpeg	366	fMRI	1	savory	1	0	0	4	1	0.578	0
45.6	0.4	sub-002	6	E	toy	post_go_fix	n/a	fMRI	n/a	n/a	n/a	n/a	n/a	n/a	n/a	n/a	n/a
46	2.5	sub-002	6	E	toy	jitter_fix	n/a	fMRI	n/a	n/a	n/a	n/a	n/a	n/a	n/a	n/a	n/a
48.5	0.6	sub-002	6	E	toy	sst_fix	n/a	fMRI	n/a	n/a	n/a	n/a	n/a	n/a	n/a	n/a	n/a
49.1	0.5	sub-002	6	E	toy	go2_savory4.jpeg	367	fMRI	1	savory	2	0	0	4	2	0.484	0
49.6	0.5	sub-002	6	E	toy	post_go_fix	n/a	fMRI	n/a	n/a	n/a	n/a	n/a	n/a	n/a	n/a	n/a
50.1	0.5	sub-002	6	E	toy	jitter_fix	n/a	fMRI	n/a	n/a	n/a	n/a	n/a	n/a	n/a	n/a	n/a
50.6	0.5	sub-002	6	E	toy	sst_fix	n/a	fMRI	n/a	n/a	n/a	n/a	n/a	n/a	n/a	n/a	n/a
51.1	0.7	sub-002	6	E	toy	go2_savory2.jpeg	368	fMRI	1	savory	2	0	0	4	2	0.615	0
51.8	0.3	sub-002	6	E	toy	post_go_fix	n/a	fMRI	n/a	n/a	n/a	n/a	n/a	n/a	n/a	n/a	n/a
52.1	0.6	sub-002	6	E	toy	jitter_fix	n/a	fMRI	n/a	n/a	n/a	n/a	n/a	n/a	n/a	n/a	n/a
52.7	0.5	sub-002	6	E	toy	sst_fix	n/a	fMRI	n/a	n/a	n/a	n/a	n/a	n/a	n/a	n/a	n/a
53.2	0.2	sub-002	6	E	toy	go1_savory6.jpeg	369	fMRI	1	savory	1	1	200	3	1	0.476	204
53.4	0.8	sub-002	6	E	toy	sst_signal	n/a	fMRI	n/a	n/a	n/a	n/a	n/a	n/a	n/a	n/a	n/a
54.2	0.5	sub-002	6	E	toy	jitter_fix	n/a	fMRI	n/a	n/a	n/a	n/a	n/a	n/a	n/a	n/a	n/a
54.7	0.6	sub-002	6	E	toy	sst_fix	n/a	fMRI	n/a	n/a	n/a	n/a	n/a	n/a	n/a	n/a	n/a
55.3	0.5	sub-002	6	E	toy	go1_savory2.jpeg	370	fMRI	1	savory	1	0	0	4	1	0.543	0
55.8	0.5	sub-002	6	E	toy	post_go_fix	n/a	fMRI	n/a	n/a	n/a	n/a	n/a	n/a	n/a	n/a	n/a
56.3	0.5	sub-002	6	E	toy	jitter_fix	n/a	fMRI	n/a	n/a	n/a	n/a	n/a	n/a	n/a	n/a	n/a
56.8	0.5	sub-002	6	E	toy	sst_fix	n/a	fMRI	n/a	n/a	n/a	n/a	n/a	n/a	n/a	n/a	n/a
57.3	0.9	sub-002	6	E	toy	go1_savory1.jpeg	371	fMRI	1	savory	1	0	0	4	1	0.923	0
58.2	0.1	sub-002	6	E	toy	post_go_fix	n/a	fMRI	n/a	n/a	n/a	n/a	n/a	n/a	n/a	n/a	n/a
58.3	4.5	sub-002	6	E	toy	jitter_fix	n/a	fMRI	n/a	n/a	n/a	n/a	n/a	n/a	n/a	n/a	n/a
62.8	0.6	sub-002	6	E	toy	sst_fix	n/a	fMRI	n/a	n/a	n/a	n/a	n/a	n/a	n/a	n/a	n/a
63.4	0.6	sub-002	6	E	toy	go2_savory6.jpeg	372	fMRI	1	savory	2	0	0	4	2	0.614	0
64	0.4	sub-002	6	E	toy	post_go_fix	n/a	fMRI	n/a	n/a	n/a	n/a	n/a	n/a	n/a	n/a	n/a
64.4	0.5	sub-002	6	E	toy	jitter_fix	n/a	fMRI	n/a	n/a	n/a	n/a	n/a	n/a	n/a	n/a	n/a
64.9	0.5	sub-002	6	E	toy	sst_fix	n/a	fMRI	n/a	n/a	n/a	n/a	n/a	n/a	n/a	n/a	n/a
65.4	0.2	sub-002	6	E	toy	go2_savory1.jpeg	373	fMRI	1	savory	2	1	150	4	0	n/a	154
65.6	0.8	sub-002	6	E	toy	sst_signal	n/a	fMRI	n/a	n/a	n/a	n/a	n/a	n/a	n/a	n/a	n/a
66.4	2.6	sub-002	6	E	toy	jitter_fix	n/a	fMRI	n/a	n/a	n/a	n/a	n/a	n/a	n/a	n/a	n/a
69	0.5	sub-002	6	E	toy	sst_fix	n/a	fMRI	n/a	n/a	n/a	n/a	n/a	n/a	n/a	n/a	n/a
69.5	0.6	sub-002	6	E	toy	go1_savory2.jpeg	374	fMRI	1	savory	1	0	0	4	1	0.638	0
70.1	0.4	sub-002	6	E	toy	post_go_fix	n/a	fMRI	n/a	n/a	n/a	n/a	n/a	n/a	n/a	n/a	n/a
70.5	0.5	sub-002	6	E	toy	jitter_fix	n/a	fMRI	n/a	n/a	n/a	n/a	n/a	n/a	n/a	n/a	n/a
71	0.6	sub-002	6	E	toy	sst_fix	n/a	fMRI	n/a	n/a	n/a	n/a	n/a	n/a	n/a	n/a	n/a
71.6	0.2	sub-002	6	E	toy	go1_savory5.jpeg	375	fMRI	1	savory	1	1	200	3	1	0.533	204
71.8	0.8	sub-002	6	E	toy	sst_signal	n/a	fMRI	n/a	n/a	n/a	n/a	n/a	n/a	n/a	n/a	n/a
72.6	0.5	sub-002	6	E	toy	jitter_fix	n/a	fMRI	n/a	n/a	n/a	n/a	n/a	n/a	n/a	n/a	n/a
73.1	0.5	sub-002	6	E	toy	sst_fix	n/a	fMRI	n/a	n/a	n/a	n/a	n/a	n/a	n/a	n/a	n/a
73.6	0.6	sub-002	6	E	toy	go2_savory6.jpeg	376	fMRI	1	savory	2	0	0	4	2	0.542	0
74.2	0.4	sub-002	6	E	toy	post_go_fix	n/a	fMRI	n/a	n/a	n/a	n/a	n/a	n/a	n/a	n/a	n/a
74.6	0.6	sub-002	6	E	toy	jitter_fix	n/a	fMRI	n/a	n/a	n/a	n/a	n/a	n/a	n/a	n/a	n/a
75.2	0.5	sub-002	6	E	toy	sst_fix	n/a	fMRI	n/a	n/a	n/a	n/a	n/a	n/a	n/a	n/a	n/a
75.7	0.5	sub-002	6	E	toy	go1_savory1.jpeg	377	fMRI	1	savory	1	0	0	4	1	0.552	0
76.2	0.5	sub-002	6	E	toy	post_go_fix	n/a	fMRI	n/a	n/a	n/a	n/a	n/a	n/a	n/a	n/a	n/a
76.7	2.5	sub-002	6	E	toy	jitter_fix	n/a	fMRI	n/a	n/a	n/a	n/a	n/a	n/a	n/a	n/a	n/a
79.2	0.5	sub-002	6	E	toy	sst_fix	n/a	fMRI	n/a	n/a	n/a	n/a	n/a	n/a	n/a	n/a	n/a
79.7	0.5	sub-002	6	E	toy	go2_savory4.jpeg	378	fMRI	1	savory	2	0	0	4	2	0.491	0
80.2	0.5	sub-002	6	E	toy	post_go_fix	n/a	fMRI	n/a	n/a	n/a	n/a	n/a	n/a	n/a	n/a	n/a
80.7	4.6	sub-002	6	E	toy	jitter_fix	n/a	fMRI	n/a	n/a	n/a	n/a	n/a	n/a	n/a	n/a	n/a
85.3	0.5	sub-002	6	E	toy	sst_fix	n/a	fMRI	n/a	n/a	n/a	n/a	n/a	n/a	n/a	n/a	n/a
85.8	0.6	sub-002	6	E	toy	go2_savory1.jpeg	379	fMRI	1	savory	2	0	0	4	2	0.596	0
86.4	0.4	sub-002	6	E	toy	post_go_fix	n/a	fMRI	n/a	n/a	n/a	n/a	n/a	n/a	n/a	n/a	n/a
86.8	0.5	sub-002	6	E	toy	jitter_fix	n/a	fMRI	n/a	n/a	n/a	n/a	n/a	n/a	n/a	n/a	n/a
87.3	0.6	sub-002	6	E	toy	sst_fix	n/a	fMRI	n/a	n/a	n/a	n/a	n/a	n/a	n/a	n/a	n/a
87.9	0.6	sub-002	6	E	toy	go2_savory3.jpeg	380	fMRI	1	savory	2	0	0	4	2	0.615	0
88.5	0.4	sub-002	6	E	toy	post_go_fix	n/a	fMRI	n/a	n/a	n/a	n/a	n/a	n/a	n/a	n/a	n/a
88.9	0.5	sub-002	6	E	toy	jitter_fix	n/a	fMRI	n/a	n/a	n/a	n/a	n/a	n/a	n/a	n/a	n/a
89.4	0.5	sub-002	6	E	toy	sst_fix	n/a	fMRI	n/a	n/a	n/a	n/a	n/a	n/a	n/a	n/a	n/a
89.9	0.5	sub-002	6	E	toy	go2_savory5.jpeg	381	fMRI	1	savory	2	0	0	4	2	0.422	0
90.4	0.5	sub-002	6	E	toy	post_go_fix	n/a	fMRI	n/a	n/a	n/a	n/a	n/a	n/a	n/a	n/a	n/a
90.9	4.6	sub-002	6	E	toy	jitter_fix	n/a	fMRI	n/a	n/a	n/a	n/a	n/a	n/a	n/a	n/a	n/a
95.5	0.5	sub-002	6	E	toy	sst_fix	n/a	fMRI	n/a	n/a	n/a	n/a	n/a	n/a	n/a	n/a	n/a
96	0.7	sub-002	6	E	toy	go1_savory1.jpeg	382	fMRI	1	savory	1	0	0	2	2	0.666	0
96.7	0.3	sub-002	6	E	toy	post_go_fix	n/a	fMRI	n/a	n/a	n/a	n/a	n/a	n/a	n/a	n/a	n/a
97	0.5	sub-002	6	E	toy	jitter_fix	n/a	fMRI	n/a	n/a	n/a	n/a	n/a	n/a	n/a	n/a	n/a
97.5	0.5	sub-002	6	E	toy	sst_fix	n/a	fMRI	n/a	n/a	n/a	n/a	n/a	n/a	n/a	n/a	n/a
98	0.7	sub-002	6	E	toy	go2_savory4.jpeg	383	fMRI	1	savory	2	0	0	4	2	0.615	0
98.7	0.4	sub-002	6	E	toy	post_go_fix	n/a	fMRI	n/a	n/a	n/a	n/a	n/a	n/a	n/a	n/a	n/a
99.1	2.5	sub-002	6	E	toy	jitter_fix	n/a	fMRI	n/a	n/a	n/a	n/a	n/a	n/a	n/a	n/a	n/a
101.6	0.5	sub-002	6	E	toy	sst_fix	n/a	fMRI	n/a	n/a	n/a	n/a	n/a	n/a	n/a	n/a	n/a
102.1	0.2	sub-002	6	E	toy	go2_savory1.jpeg	384	fMRI	1	savory	2	1	150	4	0	n/a	154
102.3	0.8	sub-002	6	E	toy	sst_signal	n/a	fMRI	n/a	n/a	n/a	n/a	n/a	n/a	n/a	n/a	n/a
103.1	2.5	sub-002	6	E	toy	jitter_fix	n/a	fMRI	n/a	n/a	n/a	n/a	n/a	n/a	n/a	n/a	n/a
105.6	0.6	sub-002	6	E	toy	sst_fix	n/a	fMRI	n/a	n/a	n/a	n/a	n/a	n/a	n/a	n/a	n/a
106.2	0.6	sub-002	6	E	toy	go1_savory4.jpeg	385	fMRI	1	savory	1	0	0	4	1	0.653	0
106.8	0.4	sub-002	6	E	toy	post_go_fix	n/a	fMRI	n/a	n/a	n/a	n/a	n/a	n/a	n/a	n/a	n/a
107.2	0.5	sub-002	6	E	toy	jitter_fix	n/a	fMRI	n/a	n/a	n/a	n/a	n/a	n/a	n/a	n/a	n/a
107.7	0.5	sub-002	6	E	toy	sst_fix	n/a	fMRI	n/a	n/a	n/a	n/a	n/a	n/a	n/a	n/a	n/a
108.2	0.2	sub-002	6	E	toy	go2_savory3.jpeg	386	fMRI	1	savory	2	1	200	4	0	n/a	203
108.4	0.8	sub-002	6	E	toy	sst_signal	n/a	fMRI	n/a	n/a	n/a	n/a	n/a	n/a	n/a	n/a	n/a
109.2	0.6	sub-002	6	E	toy	jitter_fix	n/a	fMRI	n/a	n/a	n/a	n/a	n/a	n/a	n/a	n/a	n/a
109.8	0.5	sub-002	6	E	toy	sst_fix	n/a	fMRI	n/a	n/a	n/a	n/a	n/a	n/a	n/a	n/a	n/a
110.3	0.5	sub-002	6	E	toy	go2_savory3.jpeg	387	fMRI	1	savory	2	0	0	4	2	0.526	0
110.8	0.5	sub-002	6	E	toy	post_go_fix	n/a	fMRI	n/a	n/a	n/a	n/a	n/a	n/a	n/a	n/a	n/a
111.3	2.5	sub-002	6	E	toy	jitter_fix	n/a	fMRI	n/a	n/a	n/a	n/a	n/a	n/a	n/a	n/a	n/a
113.8	0.5	sub-002	6	E	toy	sst_fix	n/a	fMRI	n/a	n/a	n/a	n/a	n/a	n/a	n/a	n/a	n/a
114.3	0.6	sub-002	6	E	toy	go1_savory5.jpeg	388	fMRI	1	savory	1	0	0	4	1	0.544	0
114.9	0.5	sub-002	6	E	toy	post_go_fix	n/a	fMRI	n/a	n/a	n/a	n/a	n/a	n/a	n/a	n/a	n/a
115.4	0.5	sub-002	6	E	toy	jitter_fix	n/a	fMRI	n/a	n/a	n/a	n/a	n/a	n/a	n/a	n/a	n/a
115.9	0.5	sub-002	6	E	toy	sst_fix	n/a	fMRI	n/a	n/a	n/a	n/a	n/a	n/a	n/a	n/a	n/a
116.4	0.7	sub-002	6	E	toy	go2_savory6.jpeg	389	fMRI	1	savory	2	0	0	4	2	0.731	0
117.1	0.3	sub-002	6	E	toy	post_go_fix	n/a	fMRI	n/a	n/a	n/a	n/a	n/a	n/a	n/a	n/a	n/a
117.4	2.5	sub-002	6	E	toy	jitter_fix	n/a	fMRI	n/a	n/a	n/a	n/a	n/a	n/a	n/a	n/a	n/a
119.9	0.6	sub-002	6	E	toy	sst_fix	n/a	fMRI	n/a	n/a	n/a	n/a	n/a	n/a	n/a	n/a	n/a
120.5	0.2	sub-002	6	E	toy	go2_savory4.jpeg	390	fMRI	1	savory	2	1	250	4	0	n/a	252
120.7	0.8	sub-002	6	E	toy	sst_signal	n/a	fMRI	n/a	n/a	n/a	n/a	n/a	n/a	n/a	n/a	n/a
121.5	0.5	sub-002	6	E	toy	jitter_fix	n/a	fMRI	n/a	n/a	n/a	n/a	n/a	n/a	n/a	n/a	n/a
122	0.5	sub-002	6	E	toy	sst_fix	n/a	fMRI	n/a	n/a	n/a	n/a	n/a	n/a	n/a	n/a	n/a
122.5	0.7	sub-002	6	E	toy	go1_savory3.jpeg	391	fMRI	1	savory	1	0	0	4	1	0.644	0
123.2	0.3	sub-002	6	E	toy	post_go_fix	n/a	fMRI	n/a	n/a	n/a	n/a	n/a	n/a	n/a	n/a	n/a
123.5	0.6	sub-002	6	E	toy	jitter_fix	n/a	fMRI	n/a	n/a	n/a	n/a	n/a	n/a	n/a	n/a	n/a
124.1	0.5	sub-002	6	E	toy	sst_fix	n/a	fMRI	n/a	n/a	n/a	n/a	n/a	n/a	n/a	n/a	n/a
124.6	0.3	sub-002	6	E	toy	go2_savory2.jpeg	392	fMRI	1	savory	2	1	300	3	2	0.486	305
124.9	0.7	sub-002	6	E	toy	sst_signal	n/a	fMRI	n/a	n/a	n/a	n/a	n/a	n/a	n/a	n/a	n/a
125.6	0.5	sub-002	6	E	toy	jitter_fix	n/a	fMRI	n/a	n/a	n/a	n/a	n/a	n/a	n/a	n/a	n/a
126.1	0.5	sub-002	6	E	toy	sst_fix	n/a	fMRI	n/a	n/a	n/a	n/a	n/a	n/a	n/a	n/a	n/a
126.6	0.8	sub-002	6	E	toy	go2_savory3.jpeg	393	fMRI	1	savory	2	0	0	4	2	0.699	0
127.4	0.2	sub-002	6	E	toy	post_go_fix	n/a	fMRI	n/a	n/a	n/a	n/a	n/a	n/a	n/a	n/a	n/a
127.6	0.6	sub-002	6	E	toy	jitter_fix	n/a	fMRI	n/a	n/a	n/a	n/a	n/a	n/a	n/a	n/a	n/a
128.2	0.5	sub-002	6	E	toy	sst_fix	n/a	fMRI	n/a	n/a	n/a	n/a	n/a	n/a	n/a	n/a	n/a
128.7	0.3	sub-002	6	E	toy	go1_savory5.jpeg	394	fMRI	1	savory	1	1	250	3	1	0.576	253
129	0.7	sub-002	6	E	toy	sst_signal	n/a	fMRI	n/a	n/a	n/a	n/a	n/a	n/a	n/a	n/a	n/a
129.7	2.5	sub-002	6	E	toy	jitter_fix	n/a	fMRI	n/a	n/a	n/a	n/a	n/a	n/a	n/a	n/a	n/a
132.2	0.6	sub-002	6	E	toy	sst_fix	n/a	fMRI	n/a	n/a	n/a	n/a	n/a	n/a	n/a	n/a	n/a
132.8	0.2	sub-002	6	E	toy	go1_savory2.jpeg	395	fMRI	1	savory	1	1	200	4	0	n/a	204
133	0.8	sub-002	6	E	toy	sst_signal	n/a	fMRI	n/a	n/a	n/a	n/a	n/a	n/a	n/a	n/a	n/a
133.8	2.5	sub-002	6	E	toy	jitter_fix	n/a	fMRI	n/a	n/a	n/a	n/a	n/a	n/a	n/a	n/a	n/a
136.3	0.5	sub-002	6	E	toy	sst_fix	n/a	fMRI	n/a	n/a	n/a	n/a	n/a	n/a	n/a	n/a	n/a
136.8	0.6	sub-002	6	E	toy	go1_savory5.jpeg	396	fMRI	1	savory	1	0	0	4	1	0.587	0
137.4	0.4	sub-002	6	E	toy	post_go_fix	n/a	fMRI	n/a	n/a	n/a	n/a	n/a	n/a	n/a	n/a	n/a
137.8	0.6	sub-002	6	E	toy	jitter_fix	n/a	fMRI	n/a	n/a	n/a	n/a	n/a	n/a	n/a	n/a	n/a
138.4	10	sub-002	6	E	toy	fix	n/a	fMRI	n/a	n/a	n/a	n/a	n/a	n/a	n/a	n/a	n/a
148.4	2.2	sub-002	6	E	toy	c2_instruct	n/a	fMRI	n/a	n/a	n/a	n/a	n/a	n/a	n/a	n/a	n/a
150.6	15.1	sub-002	6	E	toy	setE_toy2.mp4	n/a	fMRI	n/a	n/a	n/a	n/a	n/a	n/a	n/a	n/a	n/a
165.7	10	sub-002	6	E	toy	fix	n/a	fMRI	n/a	n/a	n/a	n/a	n/a	n/a	n/a	n/a	n/a
175.7	2	sub-002	6	E	toy	sst_instruct	n/a	fMRI	n/a	n/a	n/a	n/a	n/a	n/a	n/a	n/a	n/a
177.7	0.6	sub-002	6	E	toy	sst_fix	n/a	fMRI	n/a	n/a	n/a	n/a	n/a	n/a	n/a	n/a	n/a
178.3	0.2	sub-002	6	E	toy	go2_sweet2.jpeg	397	fMRI	2	sweet	2	1	250	4	0	n/a	252
178.5	0.8	sub-002	6	E	toy	sst_signal	n/a	fMRI	n/a	n/a	n/a	n/a	n/a	n/a	n/a	n/a	n/a
179.3	0.5	sub-002	6	E	toy	jitter_fix	n/a	fMRI	n/a	n/a	n/a	n/a	n/a	n/a	n/a	n/a	n/a
179.8	0.5	sub-002	6	E	toy	sst_fix	n/a	fMRI	n/a	n/a	n/a	n/a	n/a	n/a	n/a	n/a	n/a
180.3	0.8	sub-002	6	E	toy	go1_sweet4.jpeg	398	fMRI	2	sweet	1	0	0	4	1	0.768	0
181.1	0.2	sub-002	6	E	toy	post_go_fix	n/a	fMRI	n/a	n/a	n/a	n/a	n/a	n/a	n/a	n/a	n/a
181.3	0.6	sub-002	6	E	toy	jitter_fix	n/a	fMRI	n/a	n/a	n/a	n/a	n/a	n/a	n/a	n/a	n/a
181.9	0.5	sub-002	6	E	toy	sst_fix	n/a	fMRI	n/a	n/a	n/a	n/a	n/a	n/a	n/a	n/a	n/a
182.4	0.5	sub-002	6	E	toy	go1_sweet3.jpeg	399	fMRI	2	sweet	1	0	0	4	1	0.499	0
182.9	0.5	sub-002	6	E	toy	post_go_fix	n/a	fMRI	n/a	n/a	n/a	n/a	n/a	n/a	n/a	n/a	n/a
183.4	0.5	sub-002	6	E	toy	jitter_fix	n/a	fMRI	n/a	n/a	n/a	n/a	n/a	n/a	n/a	n/a	n/a
183.9	0.5	sub-002	6	E	toy	sst_fix	n/a	fMRI	n/a	n/a	n/a	n/a	n/a	n/a	n/a	n/a	n/a
184.4	0.3	sub-002	6	E	toy	go1_sweet4.jpeg	400	fMRI	2	sweet	1	1	300	3	1	0.472	304
184.7	0.7	sub-002	6	E	toy	sst_signal	n/a	fMRI	n/a	n/a	n/a	n/a	n/a	n/a	n/a	n/a	n/a
185.4	4.6	sub-002	6	E	toy	jitter_fix	n/a	fMRI	n/a	n/a	n/a	n/a	n/a	n/a	n/a	n/a	n/a
190	0.5	sub-002	6	E	toy	sst_fix	n/a	fMRI	n/a	n/a	n/a	n/a	n/a	n/a	n/a	n/a	n/a
190.5	0.6	sub-002	6	E	toy	go2_sweet4.jpeg	401	fMRI	2	sweet	2	0	0	4	2	0.641	0
191.1	0.4	sub-002	6	E	toy	post_go_fix	n/a	fMRI	n/a	n/a	n/a	n/a	n/a	n/a	n/a	n/a	n/a
191.5	2.5	sub-002	6	E	toy	jitter_fix	n/a	fMRI	n/a	n/a	n/a	n/a	n/a	n/a	n/a	n/a	n/a
194	0.6	sub-002	6	E	toy	sst_fix	n/a	fMRI	n/a	n/a	n/a	n/a	n/a	n/a	n/a	n/a	n/a
194.6	0.5	sub-002	6	E	toy	go1_sweet1.jpeg	402	fMRI	2	sweet	1	0	0	4	1	0.511	0
195.1	0.5	sub-002	6	E	toy	post_go_fix	n/a	fMRI	n/a	n/a	n/a	n/a	n/a	n/a	n/a	n/a	n/a
195.6	0.5	sub-002	6	E	toy	jitter_fix	n/a	fMRI	n/a	n/a	n/a	n/a	n/a	n/a	n/a	n/a	n/a
196.1	0.5	sub-002	6	E	toy	sst_fix	n/a	fMRI	n/a	n/a	n/a	n/a	n/a	n/a	n/a	n/a	n/a
196.6	0.6	sub-002	6	E	toy	go1_sweet5.jpeg	403	fMRI	2	sweet	1	0	0	4	1	0.524	0
197.2	0.4	sub-002	6	E	toy	post_go_fix	n/a	fMRI	n/a	n/a	n/a	n/a	n/a	n/a	n/a	n/a	n/a
197.6	0.6	sub-002	6	E	toy	jitter_fix	n/a	fMRI	n/a	n/a	n/a	n/a	n/a	n/a	n/a	n/a	n/a
198.2	0.5	sub-002	6	E	toy	sst_fix	n/a	fMRI	n/a	n/a	n/a	n/a	n/a	n/a	n/a	n/a	n/a
198.7	0.7	sub-002	6	E	toy	go2_sweet5.jpeg	404	fMRI	2	sweet	2	0	0	4	2	0.662	0
199.4	0.3	sub-002	6	E	toy	post_go_fix	n/a	fMRI	n/a	n/a	n/a	n/a	n/a	n/a	n/a	n/a	n/a
199.7	0.5	sub-002	6	E	toy	jitter_fix	n/a	fMRI	n/a	n/a	n/a	n/a	n/a	n/a	n/a	n/a	n/a
200.2	0.5	sub-002	6	E	toy	sst_fix	n/a	fMRI	n/a	n/a	n/a	n/a	n/a	n/a	n/a	n/a	n/a
200.7	0.6	sub-002	6	E	toy	go2_sweet5.jpeg	405	fMRI	2	sweet	2	0	0	4	2	0.506	0
201.3	0.4	sub-002	6	E	toy	post_go_fix	n/a	fMRI	n/a	n/a	n/a	n/a	n/a	n/a	n/a	n/a	n/a
201.7	2.6	sub-002	6	E	toy	jitter_fix	n/a	fMRI	n/a	n/a	n/a	n/a	n/a	n/a	n/a	n/a	n/a
204.3	0.5	sub-002	6	E	toy	sst_fix	n/a	fMRI	n/a	n/a	n/a	n/a	n/a	n/a	n/a	n/a	n/a
204.8	0.3	sub-002	6	E	toy	go2_sweet1.jpeg	406	fMRI	2	sweet	2	1	250	3	2	0.516	253
205.1	0.7	sub-002	6	E	toy	sst_signal	n/a	fMRI	n/a	n/a	n/a	n/a	n/a	n/a	n/a	n/a	n/a
205.8	0.5	sub-002	6	E	toy	jitter_fix	n/a	fMRI	n/a	n/a	n/a	n/a	n/a	n/a	n/a	n/a	n/a
206.3	0.6	sub-002	6	E	toy	sst_fix	n/a	fMRI	n/a	n/a	n/a	n/a	n/a	n/a	n/a	n/a	n/a
206.9	0	sub-002	6	E	toy	go1_sweet4.jpeg	407	fMRI	2	sweet	1	0	0	2	2	0	0
206.9	1	sub-002	6	E	toy	post_go_fix	n/a	fMRI	n/a	n/a	n/a	n/a	n/a	n/a	n/a	n/a	n/a
207.9	0.5	sub-002	6	E	toy	jitter_fix	n/a	fMRI	n/a	n/a	n/a	n/a	n/a	n/a	n/a	n/a	n/a
208.4	0.5	sub-002	6	E	toy	sst_fix	n/a	fMRI	n/a	n/a	n/a	n/a	n/a	n/a	n/a	n/a	n/a
208.9	0.6	sub-002	6	E	toy	go2_sweet3.jpeg	408	fMRI	2	sweet	2	0	0	4	2	0.575	0
209.5	0.4	sub-002	6	E	toy	post_go_fix	n/a	fMRI	n/a	n/a	n/a	n/a	n/a	n/a	n/a	n/a	n/a
209.9	2.6	sub-002	6	E	toy	jitter_fix	n/a	fMRI	n/a	n/a	n/a	n/a	n/a	n/a	n/a	n/a	n/a
212.5	0.5	sub-002	6	E	toy	sst_fix	n/a	fMRI	n/a	n/a	n/a	n/a	n/a	n/a	n/a	n/a	n/a
213	0.4	sub-002	6	E	toy	go1_sweet5.jpeg	409	fMRI	2	sweet	1	0	0	4	1	0.428	0
213.4	0.6	sub-002	6	E	toy	post_go_fix	n/a	fMRI	n/a	n/a	n/a	n/a	n/a	n/a	n/a	n/a	n/a
214	2.5	sub-002	6	E	toy	jitter_fix	n/a	fMRI	n/a	n/a	n/a	n/a	n/a	n/a	n/a	n/a	n/a
216.5	0.5	sub-002	6	E	toy	sst_fix	n/a	fMRI	n/a	n/a	n/a	n/a	n/a	n/a	n/a	n/a	n/a
217	0.3	sub-002	6	E	toy	go1_sweet3.jpeg	410	fMRI	2	sweet	1	1	200	4	0	n/a	205
217.3	0.8	sub-002	6	E	toy	sst_signal	n/a	fMRI	n/a	n/a	n/a	n/a	n/a	n/a	n/a	n/a	n/a
218.1	0.5	sub-002	6	E	toy	jitter_fix	n/a	fMRI	n/a	n/a	n/a	n/a	n/a	n/a	n/a	n/a	n/a
218.6	0.5	sub-002	6	E	toy	sst_fix	n/a	fMRI	n/a	n/a	n/a	n/a	n/a	n/a	n/a	n/a	n/a
219.1	0.7	sub-002	6	E	toy	go2_sweet3.jpeg	411	fMRI	2	sweet	2	0	0	4	2	0.656	0
219.8	0.3	sub-002	6	E	toy	post_go_fix	n/a	fMRI	n/a	n/a	n/a	n/a	n/a	n/a	n/a	n/a	n/a
220.1	0.5	sub-002	6	E	toy	jitter_fix	n/a	fMRI	n/a	n/a	n/a	n/a	n/a	n/a	n/a	n/a	n/a
220.6	0.6	sub-002	6	E	toy	sst_fix	n/a	fMRI	n/a	n/a	n/a	n/a	n/a	n/a	n/a	n/a	n/a
221.2	0.5	sub-002	6	E	toy	go2_sweet6.jpeg	412	fMRI	2	sweet	2	0	0	4	2	0.491	0
221.7	0.5	sub-002	6	E	toy	post_go_fix	n/a	fMRI	n/a	n/a	n/a	n/a	n/a	n/a	n/a	n/a	n/a
222.2	0.5	sub-002	6	E	toy	jitter_fix	n/a	fMRI	n/a	n/a	n/a	n/a	n/a	n/a	n/a	n/a	n/a
222.7	0.5	sub-002	6	E	toy	sst_fix	n/a	fMRI	n/a	n/a	n/a	n/a	n/a	n/a	n/a	n/a	n/a
223.2	0.7	sub-002	6	E	toy	go2_sweet2.jpeg	413	fMRI	2	sweet	2	0	0	4	2	0.646	0
223.9	0.3	sub-002	6	E	toy	post_go_fix	n/a	fMRI	n/a	n/a	n/a	n/a	n/a	n/a	n/a	n/a	n/a
224.2	2.6	sub-002	6	E	toy	jitter_fix	n/a	fMRI	n/a	n/a	n/a	n/a	n/a	n/a	n/a	n/a	n/a
226.8	0.5	sub-002	6	E	toy	sst_fix	n/a	fMRI	n/a	n/a	n/a	n/a	n/a	n/a	n/a	n/a	n/a
227.3	0.6	sub-002	6	E	toy	go2_sweet3.jpeg	414	fMRI	2	sweet	2	0	0	4	2	0.58	0
227.9	0.4	sub-002	6	E	toy	post_go_fix	n/a	fMRI	n/a	n/a	n/a	n/a	n/a	n/a	n/a	n/a	n/a
228.3	0.5	sub-002	6	E	toy	jitter_fix	n/a	fMRI	n/a	n/a	n/a	n/a	n/a	n/a	n/a	n/a	n/a
228.8	0.5	sub-002	6	E	toy	sst_fix	n/a	fMRI	n/a	n/a	n/a	n/a	n/a	n/a	n/a	n/a	n/a
229.3	0.3	sub-002	6	E	toy	go1_sweet4.jpeg	415	fMRI	2	sweet	1	1	250	3	1	0.56	253
229.6	0.8	sub-002	6	E	toy	sst_signal	n/a	fMRI	n/a	n/a	n/a	n/a	n/a	n/a	n/a	n/a	n/a
230.4	2.5	sub-002	6	E	toy	jitter_fix	n/a	fMRI	n/a	n/a	n/a	n/a	n/a	n/a	n/a	n/a	n/a
232.9	0.5	sub-002	6	E	toy	sst_fix	n/a	fMRI	n/a	n/a	n/a	n/a	n/a	n/a	n/a	n/a	n/a
233.4	0.6	sub-002	6	E	toy	go1_sweet2.jpeg	416	fMRI	2	sweet	1	0	0	2	2	0.581	0
234	0.4	sub-002	6	E	toy	post_go_fix	n/a	fMRI	n/a	n/a	n/a	n/a	n/a	n/a	n/a	n/a	n/a
234.4	0.6	sub-002	6	E	toy	jitter_fix	n/a	fMRI	n/a	n/a	n/a	n/a	n/a	n/a	n/a	n/a	n/a
235	0.5	sub-002	6	E	toy	sst_fix	n/a	fMRI	n/a	n/a	n/a	n/a	n/a	n/a	n/a	n/a	n/a
235.5	0.6	sub-002	6	E	toy	go2_sweet4.jpeg	417	fMRI	2	sweet	2	0	0	4	2	0.612	0
236.1	0.4	sub-002	6	E	toy	post_go_fix	n/a	fMRI	n/a	n/a	n/a	n/a	n/a	n/a	n/a	n/a	n/a
236.5	0.5	sub-002	6	E	toy	jitter_fix	n/a	fMRI	n/a	n/a	n/a	n/a	n/a	n/a	n/a	n/a	n/a
237	0.5	sub-002	6	E	toy	sst_fix	n/a	fMRI	n/a	n/a	n/a	n/a	n/a	n/a	n/a	n/a	n/a
237.5	0.2	sub-002	6	E	toy	go2_sweet6.jpeg	418	fMRI	2	sweet	2	1	200	3	2	0.565	202
237.7	0.9	sub-002	6	E	toy	sst_signal	n/a	fMRI	n/a	n/a	n/a	n/a	n/a	n/a	n/a	n/a	n/a
238.6	0.5	sub-002	6	E	toy	jitter_fix	n/a	fMRI	n/a	n/a	n/a	n/a	n/a	n/a	n/a	n/a	n/a
239.1	0.5	sub-002	6	E	toy	sst_fix	n/a	fMRI	n/a	n/a	n/a	n/a	n/a	n/a	n/a	n/a	n/a
239.6	1	sub-002	6	E	toy	go1_sweet1.jpeg	419	fMRI	2	sweet	1	0	0	1	0	n/a	0
240.6	4.5	sub-002	6	E	toy	jitter_fix	n/a	fMRI	n/a	n/a	n/a	n/a	n/a	n/a	n/a	n/a	n/a
245.1	0.6	sub-002	6	E	toy	sst_fix	n/a	fMRI	n/a	n/a	n/a	n/a	n/a	n/a	n/a	n/a	n/a
245.7	0.1	sub-002	6	E	toy	go2_sweet3.jpeg	420	fMRI	2	sweet	2	1	150	4	0	n/a	155
245.8	0.9	sub-002	6	E	toy	sst_signal	n/a	fMRI	n/a	n/a	n/a	n/a	n/a	n/a	n/a	n/a	n/a
246.7	0.5	sub-002	6	E	toy	jitter_fix	n/a	fMRI	n/a	n/a	n/a	n/a	n/a	n/a	n/a	n/a	n/a
247.2	0.5	sub-002	6	E	toy	sst_fix	n/a	fMRI	n/a	n/a	n/a	n/a	n/a	n/a	n/a	n/a	n/a
247.7	0.2	sub-002	6	E	toy	go1_sweet5.jpeg	421	fMRI	2	sweet	1	1	200	4	0	n/a	203
247.9	0.8	sub-002	6	E	toy	sst_signal	n/a	fMRI	n/a	n/a	n/a	n/a	n/a	n/a	n/a	n/a	n/a
248.7	4.6	sub-002	6	E	toy	jitter_fix	n/a	fMRI	n/a	n/a	n/a	n/a	n/a	n/a	n/a	n/a	n/a
253.3	0.5	sub-002	6	E	toy	sst_fix	n/a	fMRI	n/a	n/a	n/a	n/a	n/a	n/a	n/a	n/a	n/a
253.8	0.6	sub-002	6	E	toy	go1_sweet2.jpeg	422	fMRI	2	sweet	1	0	0	4	1	0.591	0
254.4	0.4	sub-002	6	E	toy	post_go_fix	n/a	fMRI	n/a	n/a	n/a	n/a	n/a	n/a	n/a	n/a	n/a
254.8	0.5	sub-002	6	E	toy	jitter_fix	n/a	fMRI	n/a	n/a	n/a	n/a	n/a	n/a	n/a	n/a	n/a
255.3	0.5	sub-002	6	E	toy	sst_fix	n/a	fMRI	n/a	n/a	n/a	n/a	n/a	n/a	n/a	n/a	n/a
255.8	0.3	sub-002	6	E	toy	go1_sweet1.jpeg	423	fMRI	2	sweet	1	1	250	4	0	n/a	253
256.1	0.8	sub-002	6	E	toy	sst_signal	n/a	fMRI	n/a	n/a	n/a	n/a	n/a	n/a	n/a	n/a	n/a
256.9	2.5	sub-002	6	E	toy	jitter_fix	n/a	fMRI	n/a	n/a	n/a	n/a	n/a	n/a	n/a	n/a	n/a
259.4	0.5	sub-002	6	E	toy	sst_fix	n/a	fMRI	n/a	n/a	n/a	n/a	n/a	n/a	n/a	n/a	n/a
259.9	1	sub-002	6	E	toy	go1_sweet6.jpeg	424	fMRI	2	sweet	1	0	0	1	0	n/a	0
260.9	2.5	sub-002	6	E	toy	jitter_fix	n/a	fMRI	n/a	n/a	n/a	n/a	n/a	n/a	n/a	n/a	n/a
263.4	0.6	sub-002	6	E	toy	sst_fix	n/a	fMRI	n/a	n/a	n/a	n/a	n/a	n/a	n/a	n/a	n/a
264	0.8	sub-002	6	E	toy	go2_sweet1.jpeg	425	fMRI	2	sweet	2	0	0	4	2	0.875	0
264.8	0.2	sub-002	6	E	toy	post_go_fix	n/a	fMRI	n/a	n/a	n/a	n/a	n/a	n/a	n/a	n/a	n/a
265	0.5	sub-002	6	E	toy	jitter_fix	n/a	fMRI	n/a	n/a	n/a	n/a	n/a	n/a	n/a	n/a	n/a
265.5	0.5	sub-002	6	E	toy	sst_fix	n/a	fMRI	n/a	n/a	n/a	n/a	n/a	n/a	n/a	n/a	n/a
266	0.8	sub-002	6	E	toy	go2_sweet5.jpeg	426	fMRI	2	sweet	2	0	0	4	2	0.752	0
266.8	0.2	sub-002	6	E	toy	post_go_fix	n/a	fMRI	n/a	n/a	n/a	n/a	n/a	n/a	n/a	n/a	n/a
267	0.5	sub-002	6	E	toy	jitter_fix	n/a	fMRI	n/a	n/a	n/a	n/a	n/a	n/a	n/a	n/a	n/a
267.5	0.6	sub-002	6	E	toy	sst_fix	n/a	fMRI	n/a	n/a	n/a	n/a	n/a	n/a	n/a	n/a	n/a
268.1	0.5	sub-002	6	E	toy	go2_sweet6.jpeg	427	fMRI	2	sweet	2	0	0	4	2	0.501	0
268.6	0.5	sub-002	6	E	toy	post_go_fix	n/a	fMRI	n/a	n/a	n/a	n/a	n/a	n/a	n/a	n/a	n/a
269.1	4.5	sub-002	6	E	toy	jitter_fix	n/a	fMRI	n/a	n/a	n/a	n/a	n/a	n/a	n/a	n/a	n/a
273.6	0.5	sub-002	6	E	toy	sst_fix	n/a	fMRI	n/a	n/a	n/a	n/a	n/a	n/a	n/a	n/a	n/a
274.1	0.6	sub-002	6	E	toy	go1_sweet6.jpeg	428	fMRI	2	sweet	1	0	0	4	1	0.546	0
274.7	0.4	sub-002	6	E	toy	post_go_fix	n/a	fMRI	n/a	n/a	n/a	n/a	n/a	n/a	n/a	n/a	n/a
275.1	0.6	sub-002	6	E	toy	jitter_fix	n/a	fMRI	n/a	n/a	n/a	n/a	n/a	n/a	n/a	n/a	n/a
275.7	0.5	sub-002	6	E	toy	sst_fix	n/a	fMRI	n/a	n/a	n/a	n/a	n/a	n/a	n/a	n/a	n/a
276.2	0.3	sub-002	6	E	toy	go2_sweet2.jpeg	429	fMRI	2	sweet	2	1	300	3	2	0.59	304
276.5	0.7	sub-002	6	E	toy	sst_signal	n/a	fMRI	n/a	n/a	n/a	n/a	n/a	n/a	n/a	n/a	n/a
277.2	0.5	sub-002	6	E	toy	jitter_fix	n/a	fMRI	n/a	n/a	n/a	n/a	n/a	n/a	n/a	n/a	n/a
277.7	0.5	sub-002	6	E	toy	sst_fix	n/a	fMRI	n/a	n/a	n/a	n/a	n/a	n/a	n/a	n/a	n/a
278.2	0.5	sub-002	6	E	toy	go1_sweet2.jpeg	430	fMRI	2	sweet	1	0	0	4	1	0.448	0
278.7	0.6	sub-002	6	E	toy	post_go_fix	n/a	fMRI	n/a	n/a	n/a	n/a	n/a	n/a	n/a	n/a	n/a
279.3	0.5	sub-002	6	E	toy	jitter_fix	n/a	fMRI	n/a	n/a	n/a	n/a	n/a	n/a	n/a	n/a	n/a
279.8	0.5	sub-002	6	E	toy	sst_fix	n/a	fMRI	n/a	n/a	n/a	n/a	n/a	n/a	n/a	n/a	n/a
280.3	0.5	sub-002	6	E	toy	go1_sweet1.jpeg	431	fMRI	2	sweet	1	0	0	2	2	0.534	0
280.8	0.5	sub-002	6	E	toy	post_go_fix	n/a	fMRI	n/a	n/a	n/a	n/a	n/a	n/a	n/a	n/a	n/a
281.3	0.5	sub-002	6	E	toy	jitter_fix	n/a	fMRI	n/a	n/a	n/a	n/a	n/a	n/a	n/a	n/a	n/a
281.8	0.6	sub-002	6	E	toy	sst_fix	n/a	fMRI	n/a	n/a	n/a	n/a	n/a	n/a	n/a	n/a	n/a
282.4	0.5	sub-002	6	E	toy	go2_sweet2.jpeg	432	fMRI	2	sweet	2	0	0	4	2	0.52	0
282.9	0.5	sub-002	6	E	toy	post_go_fix	n/a	fMRI	n/a	n/a	n/a	n/a	n/a	n/a	n/a	n/a	n/a
283.4	0.5	sub-002	6	E	toy	jitter_fix	n/a	fMRI	n/a	n/a	n/a	n/a	n/a	n/a	n/a	n/a	n/a
283.9	10	sub-002	6	E	toy	fix	n/a	fMRI	n/a	n/a	n/a	n/a	n/a	n/a	n/a	n/a	n/a
